BzOH spectrum

"Quest Graph™ Absorption [Benzyl Alcohol]." AAT Bioquest, Inc., 28 Oct. 2025, https://www.aatbio.com/absorbance-uv-visible-spectrum-graph-viewer/benzyl_alcohol.

Requested raw spectrum

Extracted from html page source

[[229,7],[229,7],[229,7],[229,7],[229,7],[229,7],[230,7],[230,7],[230,7],[230,7],[230,7],[230,7],230,7],[231,8],[231,8],[231,8],[231,9],[232,9],[232,9],[232,9],[232,9],[232,9],[232,9],[233,10],[233,10],[233,10],[233,11],[233,11],[233,11],[235,14],[236,17],[236,17],[236,18],[236,18],[237,18],[237,19],[237,19],[237,20],[237,19],[238,21],[239,23],[239,24],[240,25],[240,26],[240,26],[240,27],[240,27],[241,28],[241,29],[241,30],[241,30],[241,31],[241,32],[241,32],[242,33],[242,34],[242,34],[242,35],[242,35],[242,36],[242,36],[243,37],[243,37],[245,41],[245,42],[245,43],[245,43],[245,44],[245,45],[246,45],[246,46],[246,47],[246,48],[246,49],[246,49],[246,50],[247,51],[247,52],[247,53],[247,53],[247,54],[247,55],[248,56],[248,57],[249,57],[250,59],[250,59],[250,60],[250,61],[250,62],[251,62],[251,63],[251,65],[251,67],[251,69],[251,71],[251,73],[252,74],[252,76],[252,77],[252,78],[252,79],[252,80],[253,81],[253,81],[253,80],[254,81],[254,80],[254,79],[254,78],[254,78],[254,77],[255,76],[255,75],[256,76],[256,77],[256,77],[257,78],[257,80],[257,82],[257,84],[257,86],[257,88],[258,90],[258,93],[258,95],[258,98],[258,99],[258,99],[259,100],[259,100],[259,100],[259,99],[259,98],[260,96],[260,94],[260,92],[260,89],[260,88],[260,86],[261,84],[261,83],[261,82],[261,81],[261,80],[261,80],[262,79],[262,78],[262,78],[262,77],[262,76],[262,74],[263,72],[263,70],[263,69],[263,68],[263,67],[264,67],[264,69],[264,71],[264,73],[264,74],[264,76],[265,77],[265,77],[265,77],[265,77],[265,74],[265,71],[266,70],[266,66],[266,63],[266,60],[266,57],[267,55],[267,52],[267,50],[267,48],[267,47],[267,46],[268,46],[268,45],[268,45],[269,45],[269,45],[269,45],[269,42],[270,38],[270,28],[270,27],[270,27],[270,26],[271,23],[271,22],[271,19],[271,17],[271,15],[271,14],[272,12],[272,11],[272,10],[272,9],[272,8],[273,8],[273,7],[273,7],[273,6],[273,6],[274,6],[274,5],[274,4],[274,4],[274,3],[274,3],[275,3],[275,2],[275,2]

Extinction coefficients 258nm = 520 M^-1cm^-1

https://webbook.nist.gov/cgi/cbook.cgi?ID=C100447&Units=SI&Mask=608#UV-Vis-Spec
https://webbook.nist.gov/cgi/cbook.cgi?ID=C100447

Benzyl chloride

##TITLE=Benzyl chloride
##JCAMP-DX=4.24
##DATA TYPE=UV/VIS SPECTRUM
##ORIGIN=INSTITUTE OF ENERGY PROBLEMS OF CHEMICAL PHYSICS, RAS
##OWNER=INEP CP RAS, NIST OSRD
Collection (C) 2007 copyright by the U.S. Secretary of Commerce
on behalf of the United States of America. All rights reserved.
##CAS REGISTRY NO=100-44-7
##MOLFORM=C7H7Cl
##MP=-45
##BP=179
##SOURCE REFERENCE=RAS UV No. 4065
##$NIST SQUIB=1967DOL/ISK1154-1158
##$NIST SOURCE=TSGMTE
##SPECTROMETER/DATA SYSTEM=n.i.g.
##XUNITS=Wavelength (nm)
##YUNITS=Logarithm epsilon
##XFACTOR=1.000000
##YFACTOR=1.000000
##FIRSTX=210.0000
##LASTX=289.0000
##FIRSTY=2.75
##MAXX=289
##MINX=210
##MAXY=3.48
##MINY=2.27
##NPOINTS=80
##$REF AUTHOR=Doleib, D.M.; Iskander, Y.
##$REF TITLE=The influence of the nitro-group upon side-chain reactivity. Part IV. The inhibition of ´alphaª-proton extraction from 4-nitrobenzyl chloride by the steric effect of methyl groups in the 3- and 5-positions
##$REF JOURNAL=J. Chem. Soc. B:
##$REF PAGE=1154-1158
##$REF DATE=1967
##XYPOINTS=(XY..XY)
210.0000,2.750000
211.0000,2.750000
212.0000,2.750000
213.0000,2.750000
214.0000,2.750000
215.0000,2.750000
216.0000,2.750000
217.0000,2.780000
218.0000,2.780000
219.0000,2.980000
220.0000,3.140000
221.0000,3.260000
222.0000,3.350000
223.0000,3.430000
224.0000,3.480000
225.0000,3.480000
226.0000,3.470000
227.0000,3.390000
228.0000,3.350000
229.0000,3.300000
230.0000,3.250000
231.0000,3.200000
232.0000,3.130000
233.0000,3.050000
234.0000,2.960000
235.0000,2.850000
236.0000,2.690000
237.0000,2.430000
238.0000,2.390000
239.0000,2.320000
240.0000,2.270000
241.0000,2.320000
242.0000,2.270000
243.0000,2.360000
244.0000,2.520000
245.0000,2.530000
246.0000,2.540000
247.0000,2.560000
248.0000,2.570000
249.0000,2.580000
250.0000,2.600000
251.0000,2.610000
252.0000,2.620000
253.0000,2.630000
254.0000,2.640000
255.0000,2.650000
256.0000,2.660000
257.0000,2.670000
258.0000,2.690000
259.0000,2.690000
260.0000,2.700000
261.0000,2.710000
262.0000,2.720000
263.0000,2.720000
264.0000,2.720000
265.0000,2.720000
266.0000,2.710000
267.0000,2.710000
268.0000,2.710000
269.0000,2.710000
270.0000,2.710000
271.0000,2.700000
272.0000,2.700000
273.0000,2.700000
274.0000,2.700000
275.0000,2.700000
276.0000,2.690000
277.0000,2.690000
278.0000,2.690000
279.0000,2.690000
280.0000,2.690000
281.0000,2.680000
282.0000,2.680000
283.0000,2.680000
284.0000,2.680000
285.0000,2.670000
286.0000,2.670000
287.0000,2.670000
288.0000,2.670000
289.0000,2.670000
##END=


3-Methylbenzyl alcohol
https://webbook.nist.gov/cgi/cbook.cgi?ID=C587031&Units=SI&Mask=400#UV-Vis-Spec

##TITLE=3-Methylbenzyl alcohol
##JCAMP-DX=4.24
##DATA TYPE=UV/VIS SPECTRUM
##ORIGIN=INSTITUTE OF ENERGY PROBLEMS OF CHEMICAL PHYSICS, RAS
##OWNER=INEP CP RAS, NIST OSRD
Collection (C) 2007 copyright by the U.S. Secretary of Commerce
on behalf of the United States of America. All rights reserved.
##CAS REGISTRY NO=587-03-1
##MOLFORM=C8H10O
##MP=< -20
##BP=215.5
##SOURCE REFERENCE=RAS UV No. 5408
##$NIST SQUIB=1952ENT/RUO441-444
##$NIST SOURCE=TSGMTE
##SPECTROMETER/DATA SYSTEM=n.i.g.
##XUNITS=Wavelength (nm)
##YUNITS=Logarithm epsilon
##XFACTOR=1.000000
##YFACTOR=1.000000
##FIRSTX=228.7254
##LASTX=280.6627
##FIRSTY=2.19275
##MAXX=280.663
##MINX=228.725
##MAXY=2.38224
##MINY=0.679392
##NPOINTS=109
##$REF AUTHOR=Entel, J.; Ruof, C.H.; Howard, H.C.
##$REF TITLE=The nature of oxygen in coal: preparation and properties of phthalan
##$REF JOURNAL=J. Am. Chem. Soc.
##$REF VOLUME=74
##$REF PAGE=441-444
##$REF DATE=1952
##XYPOINTS=(XY..XY)
228.7254,2.192753
228.9980,2.131313
229.2786,2.069708
229.7239,1.957432
229.8746,1.912949
230.0261,1.868413
230.1789,1.823833
230.3334,1.779219
230.4899,1.734578
230.6490,1.689920
230.8110,1.645253
230.8110,1.645253
231.0606,1.612225
231.4524,1.563811
232.0148,1.510727
232.7762,1.463694
233.7649,1.433431
233.7649,1.433431
234.0518,1.436358
234.3387,1.439287
234.6256,1.442216
234.6256,1.442216
235.4400,1.481265
236.2545,1.520294
237.0691,1.559303
237.8840,1.598294
238.6991,1.637269
239.5147,1.676229
240.3307,1.715176
241.1473,1.754112
241.9645,1.793038
242.7823,1.831956
243.6010,1.870867
244.4206,1.909774
245.2410,1.948677
246.0625,1.987579
246.0625,1.987579
247.2393,2.027115
248.4165,2.066643
249.5946,2.106153
250.7739,2.145638
251.9548,2.185087
253.1379,2.224493
254.3235,2.263846
255.5119,2.303139
255.5119,2.303139
257.3893,2.345690
258.7120,2.369647
260.2999,2.380127
262.9723,2.382242
262.9723,2.382242
264.2240,2.345442
265.2156,2.305834
266.0159,2.263781
266.6934,2.219645
267.3168,2.173788
267.9548,2.126574
267.9548,2.126574
268.1791,2.122826
268.4193,2.118912
268.6674,2.114667
268.6674,2.114667
269.3086,2.137875
269.5818,2.178731
270.0769,2.222060
271.3839,2.252687
271.3839,2.252687
271.5705,2.240615
271.7729,2.228213
271.9832,2.215646
271.9832,2.215646
272.1742,2.177344
272.3585,2.139024
272.5368,2.100687
272.7095,2.062335
272.8774,2.023968
273.0412,1.985587
273.2013,1.947193
273.3585,1.908788
273.5135,1.870372
273.6668,1.831946
273.8191,1.793510
273.9710,1.755067
274.1232,1.716618
274.2764,1.678161
274.4310,1.639701
274.5878,1.601235
274.7474,1.562767
274.9105,1.524296
275.0777,1.485825
275.2496,1.447353
275.4269,1.408882
275.6102,1.370415
276.2025,1.255029
276.4161,1.216578
276.6390,1.178131
276.8717,1.139693
277.1149,1.101266
277.3691,1.062845
277.6351,1.024436
277.9135,0.986041
278.2049,0.947654
278.5100,0.909283
278.8293,0.870925
279.1636,0.832586
279.5134,0.794258
279.8795,0.755951
280.2624,0.717662
280.6627,0.679392
##END=
